loc_x,loc_y,loc_z,vel_x,vel_y,vel_z,acc_x,acc_y,acc_z,t,t_total,tick
-759.868225,700.061768,228.417114,0.0,0.0,0.0,0.0,0.0,0.0,0.093185,0.093185,1
-759.868225,700.061768,228.417114,0.0,0.0,0.0,0.0,0.0,0.0,0.098701,0.191885,2
-744.478455,700.398621,228.417114,232.382263,5.867548,0.0,2047.345581,51.694557,0.0,0.113504,0.305389,3
-708.739319,701.435974,228.417114,437.983704,13.196449,0.0,2046.72522,72.957893,0.0,0.100454,0.405843,4
-658.404846,702.986816,228.417114,599.710144,18.636389,0.0,1753.782837,58.991421,0.0,0.092216,0.498059,5
-599.244385,704.837463,228.417114,599.705261,18.81686,0.0,-0.049497,1.829429,0.0,0.098649,0.596708,6
-542.880249,706.609619,228.417114,599.701965,18.872042,0.0,-0.035068,0.587122,0.0,0.093987,0.690695,7
-474.067627,708.77655,228.417114,599.702576,18.891268,0.0,0.005319,0.167555,0.0,0.114745,0.805439,8
-416.152466,710.60144,228.417114,599.702454,18.898129,0.0,-0.001264,0.071042,0.0,0.096573,0.902013,9
-356.498474,712.48114,228.417114,599.703003,18.894903,0.0,0.005522,-0.032424,0.0,0.099473,1.001485,10
-298.465698,714.30957,228.417114,599.702271,18.894464,0.0,-0.007569,-0.004533,0.0,0.096769,1.098255,11
-240.630997,715.914429,228.417114,599.842651,13.738173,0.0,1.455801,-53.472622,0.0,0.096429,1.194683,12
-183.212173,716.865051,228.417114,599.946533,8.01952,0.0,1.085362,-59.748726,0.0,0.095712,1.290395,13
-114.580879,717.524048,228.417114,599.984863,4.258268,0.0,0.335079,-32.880638,0.0,0.114391,1.404786,14
-57.268257,717.805847,228.417114,599.995361,2.368731,0.0,0.109902,-19.781187,0.0,0.095522,1.500308,15
-1.554942,717.987976,228.417114,599.997437,1.775098,0.0,0.022348,-6.393032,0.0,0.092856,1.593164,16
57.832809,718.149841,228.417114,599.997925,1.57389,0.0,0.004933,-2.032821,0.0,0.09898,1.692144,17
121.837669,718.312927,228.417114,599.998169,1.506808,0.0,0.002289,-0.62885,0.0,0.106675,1.798819,18
181.669815,718.46228,228.417114,599.998535,1.494015,0.0,0.003672,-0.128287,0.0,0.09972,1.89854,19
237.393097,718.71167,228.417114,599.980957,4.827975,0.0,-0.18927,35.898018,0.0,0.092873,1.991413,20
296.342926,719.460938,228.417114,599.935181,8.858319,0.0,-0.465879,41.017971,0.0,0.098258,2.089671,21
363.242706,720.549988,228.417114,599.913391,10.177612,0.0,-0.195396,11.830679,0.0,0.111515,2.201185,22
422.379425,721.786316,228.417114,599.830933,14.235594,0.0,-0.836435,41.163002,0.0,0.098583,2.299768,23
477.581665,723.204773,228.417114,599.787109,15.952702,0.0,-0.476164,18.657347,0.0,0.092034,2.391802,24
536.483765,724.811768,228.417114,599.771118,16.545784,0.0,-0.162831,6.039076,0.0,0.098207,2.49001,25
602.688904,726.65271,228.417114,599.764954,16.737228,0.0,-0.055846,1.734334,0.0,0.110385,2.600395,26
659.653748,728.245544,228.417114,599.763855,16.785492,0.0,-0.011567,0.508153,0.0,0.094978,2.695373,27
726.426331,730.115784,228.417114,599.765137,16.802574,0.0,0.011513,0.153436,0.0,0.111331,2.806704,28
785.327515,731.766235,228.417114,599.764221,16.808048,0.0,-0.009322,0.05574,0.0,0.098207,2.904912,29
837.025208,733.215088,228.417114,372.399567,10.436465,0.0,-2429.127197,-68.07296,0.0,0.093599,2.998511,30
843.969604,733.409729,228.417114,0.0,0.0,0.0,-3713.481201,-104.069984,0.0,0.100283,3.098794,31
843.969604,733.409729,228.417114,0.0,0.0,0.0,0.0,0.0,0.0,0.095469,3.194263,32
843.969604,733.409729,228.417114,0.0,0.0,0.0,0.0,0.0,0.0,0.098149,3.292412,33
843.969604,733.409729,228.417114,0.0,0.0,0.0,0.0,0.0,0.0,0.113491,3.405902,34
817.484009,818.145813,228.417114,0.0,0.0,0.0,0.0,0.0,0.0,0.092955,0.092955,1
817.484009,818.145813,228.417114,0.0,0.0,0.0,0.0,0.0,0.0,0.114221,0.207175,2
806.174072,819.056152,228.417114,-196.140564,15.786789,0.0,-2041.392822,164.305832,0.0,0.096082,0.303257,3
774.67572,821.591675,228.417114,-398.55954,32.084732,0.0,-2041.372192,164.3629,0.0,0.099158,0.402415,4
723.422119,825.71759,228.417114,-598.064392,48.145683,0.0,-2020.983032,162.697342,0.0,0.098717,0.501132,5
668.085876,830.172119,228.417114,-598.063782,48.144085,0.0,0.006597,-0.017275,0.0,0.092525,0.593657,6
607.591614,835.04187,228.417114,-598.063721,48.145294,0.0,0.000603,0.011955,0.0,0.10115,0.694807,7
539.505371,840.523071,228.417114,-598.064941,48.146465,0.0,-0.010723,0.010287,0.0,0.113844,0.808651,8
481.858795,845.163696,228.417114,-598.064514,48.144268,0.0,0.004433,-0.022796,0.0,0.096388,0.905039,9
427.674225,849.525635,228.417114,-598.064636,48.145134,0.0,-0.001347,0.009558,0.0,0.0906,0.995639,10
369.155151,854.096069,228.417114,-598.479248,42.697914,0.0,-4.238092,-55.680569,0.0,0.09783,1.093469,11
302.279907,857.76532,228.417114,-599.340698,28.114691,0.0,-7.717115,-130.64064,0.0,0.111629,1.205097,12
243.419724,860.269348,228.417114,-599.505676,24.34499,0.0,-1.680203,-38.392155,0.0,0.098189,1.303287,13
187.763382,862.457581,228.417114,-599.550476,23.220203,0.0,-0.482587,-12.116291,0.0,0.092833,1.396119,14
128.746231,864.717163,228.417114,-599.565002,22.837454,0.0,-0.147575,-3.888408,0.0,0.098433,1.494553,15
61.859295,867.255493,228.417114,-599.569885,22.713346,0.0,-0.043769,-1.112492,0.0,0.111558,1.606111,16
3.212828,869.475098,228.417114,-599.571106,22.683298,0.0,-0.01248,-0.3072,0.0,0.097814,1.703924,17
-52.547459,871.421814,228.417114,-599.730774,17.972454,0.0,-1.717046,-50.659725,0.0,0.09299,1.796914,18
-111.467072,872.814453,228.417114,-599.874268,12.2755,0.0,-1.460844,-57.998108,0.0,0.098227,1.895141,19
-178.4888,874.030762,228.417114,-599.912598,10.26074,0.0,-0.343087,-18.033846,0.0,0.111721,2.006862,20
-237.009033,874.998352,228.417114,-599.92041,9.766431,0.0,-0.08009,-5.06742,0.0,0.097547,2.104408,21
-293.058136,875.901123,228.417114,-599.923584,9.615301,0.0,-0.033971,-1.617612,0.0,0.093428,2.197836,22
-352.372345,876.848206,228.417114,-599.923401,9.562887,0.0,0.001852,-0.530128,0.0,0.09887,2.296706,23
-417.97226,877.892883,228.417114,-599.923401,9.548162,0.0,0.0,-0.134668,0.0,0.109348,2.406054,24
-476.514923,878.824463,228.417114,-599.923401,9.545307,0.0,0.0,-0.029251,0.0,0.097583,2.503637,25
-533.641724,879.733521,228.417114,-599.924988,9.546505,0.0,-0.016665,0.012579,0.0,0.095223,2.598861,26
-593.093201,880.679199,228.417114,-599.923035,9.541718,0.0,0.019709,-0.04831,0.0,0.099098,2.697959,27
-649.03009,881.568787,228.417114,-599.924805,9.54165,0.0,-0.018983,-0.000726,0.0,0.093242,2.791201,28
-717.054443,882.650818,228.417114,-599.922607,9.54312,0.0,0.019378,0.012969,0.0,0.113388,2.904589,29
-773.967712,883.556213,228.417114,-599.923523,9.544672,0.0,-0.009651,0.016356,0.0,0.094867,2.999455,30
-829.289185,884.436218,228.417114,-599.923706,9.543671,0.0,-0.001986,-0.010859,0.0,0.092215,3.09167,31
-878.977295,885.226746,228.417114,-128.942978,2.050568,0.0,4097.53125,-65.189972,0.0,0.114943,3.206613,32
-898.308716,864.60199,228.417114,0.0,0.0,0.0,0.0,0.0,0.0,0.097127,0.097127,1
-898.308716,864.60199,228.417114,0.0,0.0,0.0,0.0,0.0,0.0,0.11409,0.211217,2
-898.671814,853.418213,228.417114,-6.341042,-195.300186,0.0,-66.459412,-2046.908813,0.0,0.095412,0.306629,3
-899.616638,824.309509,228.417114,-12.568807,-387.219147,0.0,-66.422058,-2046.906494,0.0,0.09376,0.40039,4
-901.335083,771.362976,228.417114,-19.41083,-598.085083,0.0,-66.415924,-2046.888184,0.0,0.103018,0.503407,5
-903.141113,715.719116,228.417114,-19.462923,-599.684937,0.0,-0.561421,-17.241901,0.0,0.092789,0.596196,6
-905.105469,655.196594,228.417114,-19.465708,-599.685608,0.0,-0.027592,-0.006652,0.0,0.100924,0.697121,7
-907.232788,589.652771,228.417114,-19.462729,-599.684143,0.0,0.027258,0.013402,0.0,0.109299,0.806419,8
-909.142944,530.797119,228.417114,-19.462526,-599.685791,0.0,0.00206,-0.016791,0.0,0.098144,0.904563,9
-910.907715,476.419678,228.417114,-19.461704,-599.68457,0.0,0.009066,0.013462,0.0,0.090676,0.995239,10
-912.867188,416.041443,228.417114,-19.463152,-599.683655,0.0,-0.014379,0.009093,0.0,0.100682,1.095922,11
-914.852966,348.83136,228.417114,-15.008195,-599.812195,0.0,39.752541,-1.146991,0.0,0.112067,1.207989,12
-916.119507,288.386139,228.417114,-11.494977,-599.890015,0.0,34.865379,-0.772289,0.0,0.100765,1.308754,13
-917.117432,233.019211,228.417114,-10.499773,-599.908386,0.0,10.783117,-0.199058,0.0,0.092293,1.401047,14
-918.136719,173.427322,228.417114,-10.154508,-599.914001,0.0,3.475778,-0.056528,0.0,0.099335,1.500381,15
-919.057129,118.680038,228.417114,-10.055754,-599.915649,0.0,1.082151,-0.018058,0.0,0.091257,1.591639,16
-920.220215,49.117756,228.417114,-10.017283,-599.916382,0.0,0.331768,-0.006316,0.0,0.115955,1.707594,17
-921.142822,-6.160123,228.417114,-10.009279,-599.916504,0.0,0.086868,-0.001325,0.0,0.092142,1.799736,18
-922.125366,-65.054169,228.417114,-10.00787,-599.916504,0.0,0.014358,0.0,0.0,0.098171,1.897907,19
-923.236389,-131.654022,228.417114,-10.005472,-599.916321,0.0,0.021596,0.001649,0.0,0.111017,2.008924,20
-924.211487,-190.113647,228.417114,-10.006561,-599.916138,0.0,-0.011177,0.001879,0.0,0.097445,2.106369,21
-925.14209,-245.911682,228.417114,-10.005013,-599.916504,0.0,0.016652,-0.003937,0.0,0.09301,2.199379,22
-926.0896,-302.727661,228.417114,-10.006281,-599.915894,0.0,-0.013392,0.006444,0.0,0.094709,2.294088,23
-927.230957,-371.155731,228.417114,-10.008725,-599.91687,0.0,-0.021429,-0.008562,0.0,0.114063,2.408152,24
-928.196167,-429.014099,228.417114,-10.008522,-599.915955,0.0,0.002106,0.009493,0.0,0.096443,2.504595,25
-929.119934,-484.402588,228.417114,-10.004748,-599.917175,0.0,0.040874,-0.013222,0.0,0.092325,2.59692,26
-930.250122,-552.156006,228.417114,-10.008553,-599.915161,0.0,-0.033684,0.017834,0.0,0.112938,2.709858,27
-931.202209,-609.229248,228.417114,-10.007884,-599.917236,0.0,0.007027,-0.021813,0.0,0.095137,2.804995,28
-932.146484,-665.833862,228.417114,-10.008116,-599.916748,0.0,-0.002456,0.005175,0.0,0.094355,2.899349,29
-933.104431,-723.256042,228.417114,-10.006846,-599.918091,0.0,0.013261,-0.014028,0.0,0.095718,2.995068,30
-934.223145,-790.317017,228.417114,-10.009357,-599.917542,0.0,-0.022464,0.004914,0.0,0.111782,3.10685,31
-935.24939,-851.83429,228.417114,-10.008107,-599.917053,0.0,0.012193,0.004762,0.0,0.102543,3.209393,32
-936.170959,-907.08551,228.417114,-10.005659,-599.916199,0.0,0.026581,0.009278,0.0,0.092098,3.301491,33
-937.163391,-966.599243,228.417114,-10.003848,-599.916931,0.0,0.018256,-0.007383,0.0,0.099203,3.400694,34
-938.083557,-1021.769104,228.417114,-10.005241,-599.916138,0.0,-0.015151,0.008628,0.0,0.091963,3.492657,35
-938.828308,-1066.415649,228.417114,-1.52176,-91.217461,0.0,74.060669,4440.932129,0.0,0.114548,3.607204,36
-938.836731,-1066.921997,228.417114,0.0,0.0,0.0,16.744114,1003.677307,0.0,0.090883,3.698088,37
-926.167786,-988.506531,228.417114,0.0,0.0,0.0,0.0,0.0,0.0,0.11171,0.11171,1
-926.181213,-987.569092,228.417114,-0.627585,43.814026,0.0,-6.367403,444.531555,0.0,0.098562,0.210272,2
-926.391846,-972.856201,228.417114,-3.354283,234.308777,0.0,-29.311382,2047.775635,0.0,0.093025,0.303297,3
-926.876831,-938.953613,228.417114,-6.169468,431.260284,0.0,-29.269979,2047.739502,0.0,0.09618,0.399477,4
-927.784119,-875.507019,228.417114,-8.579168,599.93811,0.0,-21.002024,1470.13147,0.0,0.114737,0.514214,5
-928.667603,-813.720398,228.417114,-8.579143,599.93927,0.0,0.00025,0.01126,0.0,0.102989,0.617203,6
-929.466187,-757.890442,228.417114,-8.582819,599.938721,0.0,-0.039507,-0.005903,0.0,0.093058,0.71026,7
-930.328979,-697.570251,228.417114,-8.580029,599.93866,0.0,0.027754,-0.000607,0.0,0.100544,0.810804,8
-931.125122,-641.904419,228.417114,-8.580425,599.938965,0.0,-0.004276,0.003289,0.0,0.092785,0.903589,9
-931.965698,-583.134399,228.417114,-8.580071,599.9375,0.0,0.003612,-0.014953,0.0,0.097961,1.001551,10
-932.81012,-524.092285,228.417114,-8.579061,599.938232,0.0,0.010272,0.007442,0.0,0.098415,1.099966,11
-933.815308,-453.794373,228.417114,-8.579782,599.939026,0.0,-0.006153,0.006771,0.0,0.117178,1.217144,12
-934.63623,-396.395874,228.417114,-8.580797,599.938721,0.0,-0.010616,-0.00319,0.0,0.095673,1.312817,13
-935.457214,-338.981995,228.417114,-8.57941,599.938477,0.0,0.0145,-0.002551,0.0,0.095697,1.408514,14
-936.279053,-281.51593,228.417114,-8.579,599.93811,0.0,0.004271,-0.003823,0.0,0.095789,1.504303,15
-937.092102,-224.657593,228.417114,-8.57804,599.938232,0.0,0.010133,0.001288,0.0,0.094772,1.599075,16
-938.079102,-155.624802,228.417114,-8.576,599.938782,0.0,0.017728,0.004774,0.0,0.115068,1.714144,17
-938.876892,-99.836441,228.417114,-8.578614,599.938721,0.0,-0.028111,-0.000656,0.0,0.092989,1.807133,18
-939.724121,-40.586018,228.417114,-8.578377,599.938538,0.0,0.002404,-0.001854,0.0,0.098761,1.905893,19
-940.691406,27.064419,228.417114,-8.579131,599.938538,0.0,-0.00669,0.0,0.0,0.112761,2.018654,20
-941.59375,84.384666,228.417114,-9.828627,599.919617,0.0,-13.077847,-0.198036,0.0,0.095543,2.114197,21
-942.534546,140.272415,228.417114,-10.220747,599.913086,0.0,-4.209078,-0.070102,0.0,0.093161,2.207357,22
-943.539673,198.739136,228.417114,-10.35423,599.910828,0.0,-1.369647,-0.023172,0.0,0.097458,2.304815,23
-944.526611,255.774963,228.417114,-10.393841,599.909546,0.0,-0.416633,-0.013482,0.0,0.095074,2.399889,24
-945.743347,325.537079,228.417114,-10.773938,599.903564,0.0,-3.268554,-0.051436,0.0,0.116289,2.516178,25
-946.915405,381.007904,228.417114,-13.875598,599.839966,0.0,-33.541584,-0.68776,0.0,0.092472,2.60865,26
-948.336548,438.478363,228.417114,-15.264848,599.806335,0.0,-14.499482,-0.350997,0.0,0.095814,2.704464,27
-950.058044,504.720306,228.417114,-15.733753,599.793579,0.0,-4.245747,-0.115504,0.0,0.110441,2.814905,28
-951.609375,563.553162,228.417114,-15.852223,599.791382,0.0,-1.20778,-0.022401,0.0,0.098089,2.912994,29
-953.209717,620.736938,228.417114,-18.017954,599.728333,0.0,-22.714781,-0.661279,0.0,0.095345,3.008339,30
-955.120544,679.121521,228.417114,-20.350674,599.655029,0.0,-23.960054,-0.752919,0.0,0.097359,3.105698,31
-957.117188,736.546326,228.417114,-21.072355,599.630676,0.0,-7.53603,-0.254302,0.0,0.095764,3.201462,32
-958.770142,783.298584,228.417114,-4.132883,116.744766,0.0,150.753021,-4297.44873,0.0,0.112366,3.313828,33
-958.792725,783.937073,228.417114,0.0,0.0,0.0,42.73893,-1207.279785,0.0,0.096701,3.410528,34
-958.792725,783.937073,228.417114,0.0,0.0,0.0,0.0,0.0,0.0,0.09795,3.508478,35
-958.792725,783.937073,228.417114,0.0,0.0,0.0,0.0,0.0,0.0,0.093056,3.601534,36
-958.792725,783.937073,228.417114,0.0,0.0,0.0,0.0,0.0,0.0,0.113157,3.714691,37
-1723.276978,1309.630371,228.389145,0.0,0.0,0.0,0.0,0.0,0.0,0.095383,0.095383,1
-1723.276978,1309.630371,228.389145,0.0,0.0,0.0,0.0,0.0,0.0,0.092829,0.188211,2
-1714.744873,1300.213013,228.389145,139.800156,-154.303894,0.0,1375.099365,-1517.760742,0.0,0.101665,0.289877,3
-1690.182495,1273.100464,228.389145,288.756958,-318.742096,0.0,1374.934204,-1517.834106,0.0,0.108337,0.398214,4
-1652.836914,1231.876953,228.389145,402.831085,-444.660706,0.0,1123.930176,-1240.629517,0.0,0.101496,0.49971,5
-1615.805542,1190.999756,228.389145,402.834625,-444.668121,0.0,0.038509,-0.080669,0.0,0.091928,0.591639,6
-1576.0896,1147.15918,228.389145,402.830963,-444.668884,0.0,-0.037143,-0.007738,0.0,0.098595,0.690233,7
-1531.71582,1098.177124,228.389145,402.829376,-444.665863,0.0,-0.014406,0.027427,0.0,0.110155,0.800388,8
-1492.36499,1054.73938,228.389145,402.82843,-444.663727,0.0,-0.009684,0.021868,0.0,0.097687,0.898075,9
-1455.100342,1013.605103,228.389145,402.831207,-444.665527,0.0,0.03002,-0.019464,0.0,0.092508,0.990583,10
-1415.391113,969.772278,228.389145,402.834045,-444.663574,0.0,0.028792,0.019814,0.0,0.098574,1.089157,11
-1371.037964,920.813293,228.389145,402.829803,-444.664978,0.0,-0.038527,-0.01275,0.0,0.110102,1.199259,12
-1332.921265,878.73822,228.389145,402.834137,-444.663635,0.0,0.045798,0.014191,0.0,0.094622,1.29388,13
-1294.956055,836.830872,228.389145,402.833221,-444.662048,0.0,-0.009714,0.016838,0.0,0.094246,1.388126,14
-1248.431274,785.474792,228.389145,402.829285,-444.665619,0.0,-0.034086,-0.030915,0.0,0.115496,1.503622,15
-1211.476563,744.681946,228.389145,402.82962,-444.667053,0.0,0.003659,-0.015635,0.0,0.091738,1.59536,16
-1172.975708,702.182678,228.389145,402.830078,-444.665924,0.0,0.00479,0.011814,0.0,0.095575,1.690935,17
-1134.488159,659.698547,228.389145,402.834045,-444.66394,0.0,0.041524,0.020762,0.0,0.095541,1.786476,18
-1087.506104,607.837463,228.389145,402.829895,-444.666565,0.0,-0.035586,-0.022503,0.0,0.116631,1.903107,19
-1050.103882,566.550964,228.389145,402.82959,-444.666534,0.0,-0.003287,0.000329,0.0,0.09285,1.995956,20
-1011.496338,523.933899,228.389145,402.831909,-444.665375,0.0,0.0242,0.0121,0.0,0.09584,2.091797,21
-972.951355,481.38623,228.389145,402.832031,-444.664063,0.0,0.001276,0.013714,0.0,0.095686,2.187483,22
-925.824097,429.364807,228.389145,402.830353,-444.665802,0.0,-0.014347,-0.014869,0.0,0.116991,2.304474,23
-886.125366,385.543304,228.389145,402.830902,-444.66571,0.0,0.005574,0.000929,0.0,0.098547,2.403021,24
-847.441895,342.842773,228.389145,402.833313,-444.663635,0.0,0.025106,0.02161,0.0,0.096029,2.49905,25
-807.878723,299.171143,228.389145,402.832275,-444.664368,0.0,-0.010565,-0.007457,0.0,0.098215,2.597265,26
-770.242737,257.626923,228.389145,402.831329,-444.664276,0.0,-0.010126,0.00098,0.0,0.093431,2.690697,27
-730.50293,213.760162,228.389145,402.831787,-444.665039,0.0,0.00464,-0.007734,0.0,0.098652,2.789349,28
-685.541992,164.129974,228.389145,402.830414,-444.66571,0.0,-0.012305,-0.006016,0.0,0.111607,2.900955,29
-646.699219,121.253357,228.389145,402.832214,-444.664551,0.0,0.018673,0.012027,0.0,0.096424,2.997379,30
-609.009766,79.649956,228.389145,402.829987,-444.664795,0.0,-0.02381,-0.002609,0.0,0.093563,3.090942,31
-569.178833,35.682472,228.389145,402.830902,-444.664856,0.0,0.009259,-0.000617,0.0,0.098881,3.189823,32
-523.995422,-14.193191,228.389145,402.831696,-444.664764,0.0,0.007074,0.000816,0.0,0.112164,3.301987,33
-484.090332,-58.24239,228.389145,402.831543,-444.664734,0.0,-0.00154,0.000308,0.0,0.09906,3.401047,34
-449.372559,-96.565514,228.389145,255.947449,-282.525696,0.0,-1578.841431,1742.815186,0.0,0.093033,3.49408,35
-444.628693,-101.80201,228.389145,0.0,0.0,0.0,-2555.030029,2820.35083,0.0,0.100174,3.594254,36
-398.444794,-215.361771,228.389145,0.0,0.0,0.0,0.0,0.0,0.0,0.091427,0.091427,1
-399.104523,-214.406784,228.389145,-27.712118,40.114502,0.0,-280.485168,406.014526,0.0,0.098801,0.190228,2
-408.217102,-201.215622,228.389145,-139.561859,202.026367,0.0,-1164.029419,1685.030151,0.0,0.096088,0.286316,3
-430.671753,-168.710602,228.389145,-262.156311,379.494232,0.0,-1164.018921,1685.035156,0.0,0.10532,0.391636,4
-460.956726,-124.612572,228.389145,-338.486267,495.405579,0.0,-804.173279,1221.182495,0.0,0.094917,0.486553,5
-493.222717,-77.195969,228.389145,-337.123474,496.334198,0.0,14.256845,9.714742,0.0,0.095589,0.582142,6
-531.800781,-20.317997,228.389145,-336.651581,496.655487,0.0,4.119759,2.804942,0.0,0.114544,0.696686,7
-563.694519,26.749577,228.389145,-336.541443,496.729309,0.0,1.162319,0.779066,0.0,0.094757,0.791443,8
-595.817017,74.16671,228.389145,-336.507172,496.753235,0.0,0.35903,0.250649,0.0,0.095455,0.886898,9
-633.857544,130.32457,228.389145,-336.493927,496.762177,0.0,0.117159,0.079096,0.0,0.113049,0.999947,10
-666.322754,178.252838,228.389145,-336.492462,496.763611,0.0,0.015183,0.014866,0.0,0.096481,1.096428,11
-696.540588,222.863632,228.389145,-336.490082,496.763763,0.0,0.026506,0.001699,0.0,0.089806,1.186234,12
-730.051208,272.335999,228.389145,-336.487427,496.764954,0.0,0.026661,0.011951,0.0,0.099586,1.28582,13
-767.326538,327.366302,228.389145,-336.487488,496.764099,0.0,-0.000551,-0.007714,0.0,0.110775,1.396595,14
-800.270691,376.015411,228.389145,-336.175934,496.975861,0.0,3.181613,2.162524,0.0,0.097923,1.494518,15
-831.115906,421.874207,228.389145,-334.050171,498.40686,0.0,23.07765,15.53518,0.0,0.092113,1.586632,16
-863.335876,470.157318,228.389145,-332.590088,499.383362,0.0,15.092745,10.094007,0.0,0.096741,1.683372,17
-900.011841,525.30658,228.389145,-332.100525,499.707458,0.0,4.435167,2.936135,0.0,0.110382,1.793755,18
-932.28772,573.889709,228.389145,-331.978607,499.791016,0.0,1.254169,0.859553,0.0,0.09721,1.890965,19
-962.850891,619.907532,228.389145,-331.940582,499.816101,0.0,0.41301,0.272467,0.0,0.092068,1.983032,20
-1000.558716,676.687805,228.389145,-331.927307,499.822418,0.0,0.116857,0.055608,0.0,0.113602,2.096634,21
-1030.941284,722.438904,228.389145,-331.924805,499.825439,0.0,0.027339,0.033007,0.0,0.091534,2.188168,22
-1062.827759,770.440674,228.389145,-332.248993,499.610535,0.0,-3.375462,-2.237598,0.0,0.096043,2.28421,23
-1101.054077,827.767761,228.389145,-333.147919,499.014496,0.0,-7.827537,-5.190101,0.0,0.114841,2.399052,24
-1132.821167,875.171143,228.389145,-335.50827,497.427521,0.0,-24.818579,-16.686695,0.0,0.095104,2.494156,25
-1164.506348,920.955566,228.389145,-344.534149,491.218475,0.0,-97.261482,-66.907715,0.0,0.0928,2.586956,26
-1198.021362,968.260681,228.389145,-347.890778,488.847137,0.0,-34.738255,-24.541334,0.0,0.096626,2.683582,27
-1237.272949,1023.228699,228.389145,-349.027435,488.038147,0.0,-10.096846,-7.186202,0.0,0.112576,2.796158,28
-1270.318848,1069.377075,228.389145,-349.526428,487.681213,0.0,-5.274941,-3.773207,0.0,0.094597,2.890755,29
-1305.090332,1118.053955,228.389145,-348.414398,488.472778,0.0,11.153658,7.939394,0.0,0.099701,2.990456,30
-1344.498657,1173.363159,228.389145,-348.055939,488.73172,0.0,3.166998,2.287756,0.0,0.113186,3.103642,31
-1366.654907,1204.47998,228.389145,-74.115402,104.098,0.0,2855.342773,-4009.122314,0.0,0.09594,3.199581,32
-1367.218018,1205.270874,228.389145,0.0,0.0,0.0,827.360535,-1162.060425,0.0,0.089581,3.289162,33
-1584.726196,122.013344,228.389145,0.0,0.0,0.0,0.0,0.0,0.0,0.098835,0.098835,1
-1584.726196,122.013344,228.389145,0.0,0.0,0.0,0.0,0.0,0.0,0.092934,0.191769,2
-1578.884521,127.593346,228.389145,117.617737,112.349724,0.0,1202.855103,1148.980103,0.0,0.097782,0.289551,3
-1555.245361,150.174225,228.389145,281.701599,269.089691,0.0,1480.878662,1414.598877,0.0,0.110802,0.400352,4
-1515.487305,188.152161,228.389145,433.868042,414.439728,0.0,1435.18457,1370.894409,0.0,0.106026,0.506378,5
-1475.564087,226.287979,228.389145,433.860931,414.441559,0.0,-0.077277,0.0199,0.0,0.092014,0.598392,6
-1434.051147,265.942383,228.389145,433.864014,414.441315,0.0,0.032213,-0.002552,0.0,0.095684,0.694077,7
-1393.879761,304.290741,228.389145,434.306244,413.97995,0.0,4.777778,-4.984504,0.0,0.09256,0.786636,8
-1343.677856,351.893524,228.389145,435.868195,412.336334,0.0,13.546035,-14.254276,0.0,0.115307,0.901943,9
-1300.582275,392.612335,228.389145,436.225769,411.951752,0.0,3.618452,-3.891758,0.0,0.09882,1.000763,10
-1258.555298,432.275818,228.389145,436.600647,411.56015,0.0,3.892115,-4.065745,0.0,0.096317,1.09708,11
-1215.687256,472.586578,228.389145,437.323975,410.789307,0.0,7.375472,-7.859971,0.0,0.098072,1.195152,12
-1176.081299,509.755981,228.389145,437.759094,410.329407,0.0,4.80654,-5.080275,0.0,0.090527,1.285679,13
-1131.296631,551.479065,228.389145,440.16925,407.735962,0.0,23.626057,-25.422781,0.0,0.102013,1.387691,14
-1080.764526,597.996826,228.389145,442.0065,405.749786,0.0,16.050388,-17.351418,0.0,0.114468,1.502159,15
-1038.411133,636.819763,228.389145,442.425446,405.28653,0.0,4.374935,-4.837669,0.0,0.09576,1.597919,16
-996.649719,675.057861,228.389145,442.56076,405.141602,0.0,1.433849,-1.535713,0.0,0.094372,1.692291,17
-954.644348,713.505676,228.389145,442.605011,405.0914,0.0,0.466257,-0.52896,0.0,0.094906,1.787197,18
-905.248535,758.712769,228.389145,442.618469,405.077332,0.0,0.120591,-0.12606,0.0,0.111603,1.8988,19
-861.960205,798.329102,228.389145,442.622131,405.075897,0.0,0.037446,-0.014666,0.0,0.097797,1.996597,20
-821.498047,835.358521,228.389145,442.623138,405.070679,0.0,0.011017,-0.057086,0.0,0.091415,2.088013,21
-777.41748,875.699341,228.389145,442.623138,405.071838,0.0,0.0,0.011644,0.0,0.09959,2.187603,22
-728.466858,920.496765,228.389145,442.627441,405.069427,0.0,0.038909,-0.0218,0.0,0.110592,2.298195,23
-684.384399,960.83905,228.389145,442.624512,405.071503,0.0,-0.029417,0.020837,0.0,0.09959,2.397785,24
-644.600342,997.247803,228.389145,442.623444,405.071075,0.0,-0.011884,-0.004754,0.0,0.089878,2.487663,25
-600.757141,1037.523682,228.389145,441.176666,406.649536,0.0,-14.580908,15.908039,0.0,0.099224,2.586887,26
-552.246216,1082.352295,228.389145,440.42337,407.468597,0.0,-6.842649,7.440036,0.0,0.110088,2.696976,27
-518.095215,1113.964966,228.389145,153.021484,141.669525,0.0,-2928.581299,-2708.451904,0.0,0.098137,2.795113,28
-321.285095,1301.359741,228.389145,0.0,0.0,0.0,0.0,0.0,0.0,0.099945,0.099945,1
-321.832275,1300.873657,228.389145,-28.945223,-25.713303,0.0,-312.294373,-277.424713,0.0,0.092686,0.192631,2
-333.33667,1290.654297,228.389145,-177.812729,-157.952316,0.0,-1531.161865,-1360.131226,0.0,0.097225,0.289856,3
-364.246643,1263.196533,228.389145,-348.450592,-309.530701,0.0,-1531.120728,-1360.10144,0.0,0.111446,0.401302,4
-400.780426,1230.743042,228.389145,-448.57312,-398.474823,0.0,-1158.377563,-1029.047974,0.0,0.086433,0.487736,5
-450.401764,1186.663818,228.389145,-448.573914,-398.471344,0.0,-0.007173,0.031449,0.0,0.110622,0.598358,6
-493.34613,1148.515869,228.389145,-448.573822,-398.470795,0.0,0.000956,0.005738,0.0,0.095737,0.694096,7
-535.821411,1110.784912,228.389145,-448.575928,-398.472473,0.0,-0.022238,-0.017726,0.0,0.094688,0.788784,8
-588.018921,1064.417725,228.389145,-448.574707,-398.47229,0.0,0.01049,0.001574,0.0,0.116364,0.905148,9
-623.365662,1033.019043,228.389145,-448.575134,-398.470795,0.0,-0.005422,0.018978,0.0,0.078796,0.983944,10
-674.296326,987.776855,228.389145,-448.574493,-398.473572,0.0,0.005645,-0.02446,0.0,0.113537,1.097481,11
-718.079773,948.883606,228.389145,-448.575317,-398.474335,0.0,-0.008441,-0.007816,0.0,0.09761,1.195091,12
-760.411255,911.28009,228.389145,-448.57431,-398.474335,0.0,0.010671,0.0,0.0,0.094372,1.289463,13
-803.2052,873.210999,228.389145,-447.670746,-399.488251,0.0,9.465095,-10.621059,0.0,0.095463,1.384926,14
-852.447449,829.097046,228.389145,-446.545013,-400.747498,0.0,10.216514,-11.428215,0.0,0.110188,1.495113,15
-894.856934,790.999695,228.389145,-446.261841,-401.061401,0.0,2.980247,-3.303678,0.0,0.095016,1.59013,16
-944.438965,746.42511,228.389145,-446.166412,-401.167023,0.0,0.858771,-0.950498,0.0,0.111122,1.701252,17
-987.319824,707.865967,228.389145,-446.14212,-401.192444,0.0,0.252739,-0.264486,0.0,0.096115,1.797367,18
-1028.434448,670.892761,228.389145,-446.137787,-401.200653,0.0,0.047024,-0.08908,0.0,0.092155,1.889523,19
-1071.87793,631.824524,228.389145,-446.132324,-401.205505,0.0,0.056097,-0.04983,0.0,0.097378,1.9869,20
-1120.878418,587.758301,228.389145,-446.130127,-401.204346,0.0,0.020005,0.010558,0.0,0.109837,2.096737,21
-1164.565186,548.470947,228.389145,-446.135101,-401.204712,0.0,-0.050799,-0.00374,0.0,0.097923,2.19466,22
-1205.072266,512.042908,228.389145,-446.129364,-401.207886,0.0,0.063188,-0.034955,0.0,0.090797,2.285458,23
-1249.188354,472.369141,228.389145,-446.129059,-401.206421,0.0,0.003086,0.014814,0.0,0.098885,2.384342,24
-1297.386597,429.024475,228.389145,-446.130463,-401.205933,0.0,-0.012994,0.00452,0.0,0.108032,2.492374,25
-1340.700439,390.072479,228.389145,-446.131866,-401.205414,0.0,-0.01446,0.005344,0.0,0.097084,2.589458,26
-1375.379883,358.885681,228.389145,-101.009537,-90.833229,0.0,3173.556396,2854.013184,0.0,0.108749,2.698208,27
-1376.185303,358.161377,228.389145,0.0,0.0,0.0,1073.59082,965.430847,0.0,0.094086,2.792294,28
-1376.185303,358.161377,228.389145,0.0,0.0,0.0,0.0,0.0,0.0,0.093006,2.8853,29
-1376.185303,358.161377,228.389145,0.0,0.0,0.0,0.0,0.0,0.0,0.115578,3.000877,30
-1163.289307,1336.093506,228.406631,0.0,0.0,0.0,0.0,0.0,0.0,0.100479,0.100479,1
-1163.258667,1328.797729,228.406631,0.649569,-154.609985,0.0,6.973002,-1659.708496,0.0,0.093155,0.193634,2
-1163.147339,1302.204346,228.406631,1.477831,-353.405243,0.0,8.5334,-2048.144287,0.0,0.097061,0.290695,3
-1153.58606,1258.450439,228.406631,214.799088,-459.537201,0.0,2120.303711,-1054.897095,0.0,0.100609,0.391304,4
-1120.246948,1211.00647,228.406631,379.395935,-464.822113,0.0,1655.720459,-53.162243,0.0,0.099411,0.490715,5
-1074.932617,1161.177979,228.406631,414.295868,-434.004395,0.0,310.845612,274.486267,0.0,0.112274,0.602989,6
-1035.014648,1120.42627,228.406631,422.315247,-426.199646,0.0,84.345688,82.088272,0.0,0.095078,0.698067,7
-997.061951,1080.063232,228.406631,356.855896,-482.339844,0.0,-707.677979,-606.929077,0.0,0.092499,0.790565,8
-991.783569,1027.210938,228.406631,-139.526337,-550.102234,0.0,-5064.752441,-691.402161,0.0,0.098007,0.888573,9
-1024.933105,969.112549,228.406631,-358.704437,-480.970673,0.0,-1952.699341,615.906189,0.0,0.112244,1.000816,10
-1062.664551,924.975403,228.406631,-403.36142,-444.182434,0.0,-461.28772,380.006927,0.0,0.096809,1.097626,11
-1111.807251,900.429688,228.406631,-575.220703,-170.641006,0.0,-1859.189453,2959.196533,0.0,0.092438,1.190063,12
-1169.575195,891.49292,228.406631,-597.42865,-55.510349,0.0,-227.676178,1180.321167,0.0,0.097542,1.287605,13
-1237.670532,888.28009,228.406631,-599.786316,-16.106306,0.0,-20.746828,346.745026,0.0,0.11364,1.401245,14
-1295.350342,887.349365,228.406631,-599.962036,-6.796921,0.0,-1.827646,96.825882,0.0,0.096146,1.497391,15
-1349.165039,866.152283,228.406631,-514.660095,-308.419495,0.0,877.536743,-3102.91748,0.0,0.097206,1.594597,16
-1382.130005,823.474121,228.406631,-221.567261,-557.592041,0.0,3164.958252,-2690.685791,0.0,0.092606,1.687202,17
-1386.908936,754.654846,228.406631,57.909058,-597.198059,0.0,2412.507813,-341.888824,0.0,0.115845,1.803047,18
-1374.536377,700.962891,228.406631,227.837875,-555.058777,0.0,1843.47876,457.149475,0.0,0.092178,1.895226,19
-1337.513672,658.480286,228.406631,457.338104,-388.384918,0.0,2427.261719,1762.791626,0.0,0.094551,1.989777,20
-1280.685913,621.48407,228.406631,522.563965,-294.835327,0.0,576.40802,826.707947,0.0,0.113159,2.102936,21
-1229.519775,595.825867,228.406631,544.422119,-252.192505,0.0,229.071075,446.892151,0.0,0.095421,2.198357,22
-1179.106934,574.866943,228.406631,559.251404,-217.346985,0.0,162.966721,382.935516,0.0,0.090996,2.289352,23
-1123.027466,554.365051,228.406631,565.268982,-201.17038,0.0,60.467342,162.549835,0.0,0.099518,2.38887,24
-1058.474854,531.856201,228.406631,567.110718,-195.91803,0.0,16.163374,46.095482,0.0,0.113945,2.502815,25
-1014.440063,494.91507,228.406631,387.589874,-458.011414,0.0,-1857.448364,-2711.801758,0.0,0.096649,2.599464,26
-1002.174866,442.124969,228.406631,-3.54622,-599.988831,0.0,-4211.187012,-1528.607178,0.0,0.09288,2.692345,27
-1015.011719,385.236237,228.406631,-191.013901,-568.783386,0.0,-1922.522827,320.018768,0.0,0.097511,2.789856,28
-1052.154541,331.629761,228.406631,-464.126038,-380.249603,0.0,-2463.346436,1700.488525,0.0,0.11087,2.900726,29
-1104.009521,302.996155,228.406631,-546.935303,-246.706573,0.0,-837.046021,1349.869019,0.0,0.09893,2.999657,30
-1155.171387,282.315063,228.406631,-558.487793,-219.29187,0.0,-125.608292,298.0755,0.0,0.091972,3.091629,31
-1209.72229,260.783356,228.406631,-557.760742,-221.140182,0.0,7.438027,-18.908991,0.0,0.097748,3.189377,32
-1272.454712,235.8293,228.406631,-557.398926,-222.055069,0.0,3.215622,-8.131001,0.0,0.112518,3.301895,33
-1327.137939,214.027328,228.406631,-557.311096,-222.276871,0.0,0.895109,-2.260477,0.0,0.098122,3.400017,34
-1375.105347,185.689713,228.406631,-439.558838,-408.398621,0.0,1254.696655,-1983.200562,0.0,0.093849,3.493866,35
-1395.460571,133.825775,228.406631,-48.057072,-598.072388,0.0,4023.437256,-1949.264526,0.0,0.097305,3.591171,36
-1380.950073,68.729019,228.406631,298.560608,-519.373657,0.0,3064.544434,695.797668,0.0,0.113106,3.704277,37
-1339.802246,30.118673,228.406631,489.323364,-347.2211,0.0,2016.423828,1819.708008,0.0,0.094604,3.798882,38
-1291.845581,2.640575,228.406631,533.290588,-274.957367,0.0,476.97998,783.955627,0.0,0.092178,3.89106,39
-1239.533936,-22.166348,228.406631,545.925232,-248.930573,0.0,130.933594,269.717255,0.0,0.096497,3.987556,40
-1178.936035,-50.727112,228.406631,534.567139,-272.46109,0.0,-101.709915,-210.712036,0.0,0.111671,4.099228,41
-1129.643555,-79.436356,228.406631,508.274933,-318.840179,0.0,-276.445679,-487.646393,0.0,0.095108,4.194336,42
-1082.27124,-111.123566,228.406631,493.977234,-340.56424,0.0,-150.512253,-228.689743,0.0,0.094994,4.28933,43
-1026.587036,-150.434433,228.406631,488.420044,-348.492218,0.0,-48.914913,-69.782822,0.0,0.113609,4.402939,44
-979.525879,-184.200974,228.406631,487.08609,-350.353699,0.0,-13.818383,-19.283016,0.0,0.096535,4.499474,45
-934.496216,-216.645233,228.406631,486.673523,-350.923859,0.0,-4.460244,-6.163972,0.0,0.092499,4.591972,46
-915.73175,-263.021973,228.406631,-0.518032,-532.392883,0.0,-5107.756348,-1902.536255,0.0,0.095383,4.687355,47
-936.935486,-326.113129,228.406631,-268.927277,-536.356018,0.0,-2359.394775,-34.837101,0.0,0.113762,4.801117,48
-966.172546,-374.896027,228.406631,-325.653625,-503.935516,0.0,-598.16864,341.868073,0.0,0.094833,4.89595,49
-997.204285,-420.513306,228.406631,-342.79895,-492.432129,0.0,-186.449188,125.095161,0.0,0.091957,4.987907,50
-1042.676758,-457.607208,228.406631,-534.417908,-272.758545,0.0,-1930.505737,2213.147949,0.0,0.099258,5.087166,51
-1103.904419,-477.773071,228.406631,-581.832947,-146.539856,0.0,-440.577332,1172.815552,0.0,0.10762,5.194786,52
-1162.357056,-489.915863,228.406631,-589.618591,-111.137154,0.0,-78.233673,355.74234,0.0,0.099518,5.294304,53
-1218.11853,-499.719696,228.406631,-591.494995,-100.652847,0.0,-19.887119,111.118217,0.0,0.094353,5.388657,54
-1276.416626,-512.243103,228.406631,-562.319763,-209.280487,0.0,292.560333,-1089.28479,0.0,0.099724,5.48838,55
-1329.014038,-552.267395,228.406631,-423.95282,-424.57901,0.0,1248.865967,-1943.231567,0.0,0.110794,5.599174,56
-1366.947632,-596.506775,228.406631,-374.944946,-468.42218,0.0,504.362427,-451.210114,0.0,0.097168,5.696342,57
-1374.020264,-647.649658,228.406631,168.099915,-455.386627,0.0,4962.558594,119.124031,0.0,0.109428,5.805771,58
-1341.584106,-690.891174,228.406631,414.394287,-433.907043,0.0,2557.013428,222.999756,0.0,0.096321,5.902092,59
-1300.154053,-727.552979,228.406631,464.234894,-380.117279,0.0,540.250427,583.057556,0.0,0.092255,5.994347,60
-1246.760376,-767.556885,228.406631,491.481873,-344.159241,0.0,245.013443,323.346039,0.0,0.111206,6.105553,61
-1199.669312,-797.807373,228.406631,512.577698,-311.868652,0.0,226.107773,346.094696,0.0,0.0933,6.198853,62
-1150.664917,-825.765808,228.406631,525.348267,-289.845947,0.0,135.810471,234.203644,0.0,0.094032,6.292885,63
-1092.469238,-857.01593,228.406631,530.196655,-280.879089,0.0,44.03326,81.437363,0.0,0.110107,6.402992,64
-1042.321777,-883.010376,228.406631,534.975159,-271.667603,0.0,50.755917,97.841812,0.0,0.094147,6.497139,65
-990.97168,-908.376343,228.406631,539.341064,-262.892731,0.0,45.735935,91.922951,0.0,0.095459,6.592598,66
-944.209045,-942.110352,228.406631,398.581421,-448.4776,0.0,-1446.237183,-1906.794678,0.0,0.097328,6.689926,67
-614.363953,-939.31842,228.406631,59.075821,566.455933,0.0,576.515991,5527.995605,0.0,0.10247,0.10247,1
-616.459412,-884.793518,228.406631,-62.23674,596.761963,0.0,-1332.161499,332.797577,0.0,0.091064,0.193535,2
-626.865479,-828.431335,228.406631,-191.250488,568.702576,0.0,-1347.095459,-292.98175,0.0,0.095772,0.289307,3
-668.398987,-777.306824,228.406631,-480.934143,338.671173,0.0,-2596.199463,-2061.584717,0.0,0.11158,0.400887,4
-727.573669,-764.615723,228.406631,-599.737549,17.71106,0.0,-1165.03064,-3147.455078,0.0,0.101974,0.502861,5
-783.149963,-769.798523,228.406631,-593.361328,-89.013588,0.0,68.47554,-1146.137939,0.0,0.093117,0.595978,6
-841.390686,-781.060791,228.406631,-586.849854,-124.926453,0.0,65.849243,-363.179626,0.0,0.098885,0.694862,7
-906.908997,-791.212952,228.406631,-599.489319,24.734404,0.0,-113.806419,1347.554321,0.0,0.111061,0.805923,8
-963.144226,-774.960693,228.406631,-554.872192,228.290207,0.0,455.5625,2078.403564,0.0,0.097939,0.903862,9
-1001.143066,-734.906372,228.406631,-318.568298,508.441772,0.0,2531.700439,3001.473389,0.0,0.093338,0.9972,10
-1023.766235,-682.743164,228.406631,-200.449448,565.524292,0.0,1244.439697,601.392151,0.0,0.094917,1.092117,11
-1034.563477,-616.247131,228.406631,62.21294,596.764709,0.0,2309.187988,274.649139,0.0,0.113747,1.205864,12
-1015.274475,-562.846863,228.406631,319.156342,499.295563,0.0,2684.582275,-1018.371948,0.0,0.095711,1.301575,13
-968.994446,-528.107971,228.406631,531.744568,277.932617,0.0,2186.297607,-2276.538574,0.0,0.097237,1.398811,14
-915.629944,-516.47876,228.406631,599.363403,-27.663645,0.0,729.099731,-3295.089844,0.0,0.092743,1.491554,15
-863.417297,-540.745239,228.406631,430.697357,-410.514862,0.0,-1689.005737,-3833.835693,0.0,0.099861,1.591415,16
-830.728882,-597.102661,228.406631,230.527069,-553.946045,0.0,-1833.453491,-1313.753418,0.0,0.109177,1.700592,17
-812.338562,-652.968506,228.406631,168.750793,-575.781006,0.0,-629.98053,-222.668015,0.0,0.098061,1.798653,18
-797.28418,-709.112854,228.406631,149.404907,-581.100525,0.0,-199.693176,-54.909435,0.0,0.096878,1.895531,19
-784.928711,-766.410156,228.406631,49.630112,-597.943176,0.0,-1019.146057,-172.038651,0.0,0.0979,1.993431,20
-806.787476,-825.861206,228.406631,-392.527344,-436.356934,0.0,-3991.62915,1458.739014,0.0,0.110771,2.104202,21
-855.009827,-856.003845,228.406631,-544.950317,-251.054901,0.0,-1600.062744,1945.211304,0.0,0.095261,2.199463,22
-908.47522,-870.151489,228.406631,-599.684082,-19.421743,0.0,-588.086243,2488.779541,0.0,0.093071,2.292534,23
-965.297302,-856.110779,228.406631,-560.059143,215.253815,0.0,404.117645,2393.354736,0.0,0.098053,2.390587,24
-1009.068604,-806.959045,228.406631,-289.523956,525.523621,0.0,2423.096191,2778.986084,0.0,0.111649,2.502235,25
-1039.865234,-757.472107,228.406631,-396.612549,450.219849,0.0,-1095.047241,-770.027771,0.0,0.097794,2.600029,26
-1087.661011,-732.814514,228.406631,-586.539795,126.370888,0.0,-2058.898682,-3510.671631,0.0,0.092247,2.692276,27
-1146.162964,-732.811096,228.406631,-597.216919,-57.741539,0.0,-109.180214,-1882.663696,0.0,0.097794,2.79007,28
-1211.775513,-745.551025,228.406631,-564.354614,-203.727234,0.0,294.236481,-1307.099976,0.0,0.111687,2.901756,29
-1256.243286,-782.060547,228.406631,-341.825592,-473.876953,0.0,2281.013916,-2769.145508,0.0,0.097557,2.999313,30
-1267.874756,-833.199585,228.406631,34.607193,-572.558289,0.0,4179.213867,-1095.575073,0.0,0.090073,3.089386,31
-1230.480225,-882.081116,228.406631,492.023163,-240.966843,0.0,4009.524658,2906.597412,0.0,0.114082,3.203468,32
-1175.034302,-889.339905,228.406631,599.94873,7.659142,0.0,1132.859741,2609.746582,0.0,0.095268,3.298737,33
-1120.150513,-877.796326,228.406631,541.384521,258.657837,0.0,-619.192383,2653.779053,0.0,0.094582,3.393318,34
-1075.066284,-837.890564,228.406631,396.972717,449.903046,0.0,-1432.337769,1896.85144,0.0,0.100822,3.494141,35
-1053.946533,-786.334656,228.406631,88.608017,593.419983,0.0,-3255.575928,1515.187378,0.0,0.094719,3.58886,36
-1057.571655,-716.759583,228.406631,-84.069115,594.081238,0.0,-1483.361938,5.68043,0.0,0.116409,3.705269,37
-1068.088745,-660.685791,228.406631,-122.589378,587.341919,0.0,-405.04837,-70.865303,0.0,0.0951,3.800369,38
-1071.846436,-604.059387,228.406631,87.046837,593.65155,0.0,2193.807373,66.029221,0.0,0.095558,3.895927,39
-1049.771484,-542.821167,228.406631,254.571152,543.316711,0.0,1539.813965,-462.656952,0.0,0.108795,4.004723,40
-1021.527893,-490.180573,228.406631,295.789856,522.024231,0.0,413.89856,-213.808929,0.0,0.099586,4.104309,41
-992.078003,-443.285339,228.406631,380.279694,464.096954,0.0,913.641785,-626.404114,0.0,0.092476,4.196785,42
-942.944458,-411.266724,228.406631,542.978455,255.291931,0.0,1654.659546,-2123.563965,0.0,0.098328,4.295113,43
-880.771118,-389.443939,228.406631,574.759644,172.199524,0.0,289.179047,-756.063049,0.0,0.109901,4.405014,44
-822.233459,-395.82843,228.406631,575.815002,-168.630219,0.0,10.657011,-3441.697754,0.0,0.09903,4.504044,45
-769.651001,-413.311401,228.406631,589.587952,-111.291748,0.0,148.641251,618.811707,0.0,0.092659,4.596703,46
-710.276367,-412.342682,228.406631,596.57251,64.041115,0.0,70.378227,1766.699585,0.0,0.099243,4.695946,47
-655.470459,-378.774536,228.406631,434.57605,413.693085,0.0,-1490.153687,3216.336914,0.0,0.108711,4.804657,48
-625.219055,-326.098419,228.406631,141.304947,583.123962,0.0,-2836.45459,1638.698608,0.0,0.103394,4.908051,49
-623.971252,-271.005066,228.406631,-46.265762,598.213257,0.0,-2035.878418,163.778076,0.0,0.092133,5.000183,50
-632.74884,-213.875259,228.406631,-111.112717,589.621765,0.0,-672.917419,-89.153984,0.0,0.096367,5.09655,51
-644.382324,-159.153915,228.406631,-130.939774,585.537842,0.0,-212.630661,-43.797089,0.0,0.093246,5.189796,52
-679.788452,-99.91629,228.406631,-417.483276,430.937225,0.0,-2447.880615,-1320.720337,0.0,0.117058,5.306854,53
-724.33313,-63.715195,228.406631,-485.100403,353.09671,0.0,-706.079651,-812.835571,0.0,0.095764,5.402618,54
-773.963318,-30.455078,228.406631,-504.113037,325.377747,0.0,-190.886551,-278.297974,0.0,0.099602,5.50222,55
-821.580994,-0.473572,228.406631,-509.36026,317.100616,0.0,-55.943062,-88.2463,0.0,0.093796,5.596016,56
-870.266663,29.58663,228.406631,-511.051819,314.36438,0.0,-17.740118,-28.696112,0.0,0.095352,5.691368,57
-928.649841,65.395866,228.406631,-511.639008,313.409515,0.0,-5.144652,-8.366043,0.0,0.114136,5.805504,58
-968.154907,107.46109,228.406631,-311.960205,512.523682,0.0,2045.6698,2039.885254,0.0,0.09761,5.903114,59
-989.565247,157.101028,228.406631,-201.509155,565.149902,0.0,1224.170532,583.276184,0.0,0.090225,5.99334,60
-1003.679138,222.854202,228.406631,12.240551,599.875183,0.0,1891.47998,307.285431,0.0,0.113007,6.106346,61
-988.639587,277.98587,228.406631,221.842194,557.482727,0.0,2191.171387,-443.169891,0.0,0.095657,6.202003,62
-962.103088,327.568848,228.406631,363.999878,476.972992,0.0,1510.938354,-855.706482,0.0,0.094086,6.296089,63
-915.208679,359.885651,228.406631,537.989136,265.645386,0.0,1820.622681,-2211.331055,0.0,0.095566,6.391655,64
-849.361084,368.676727,228.406631,591.948303,-97.974113,0.0,475.560516,-3204.702637,0.0,0.113464,6.505119,65
-807.501953,334.290192,228.406631,356.786743,-482.392303,0.0,-2479.734131,-4053.616943,0.0,0.094833,6.599953,66
-787.557861,283.471985,228.406631,64.185608,-592.508606,0.0,-3157.047852,-1188.110352,0.0,0.092682,6.692635,67
-809.090393,222.095993,228.406631,-388.922974,-438.975525,0.0,-3988.037109,1351.322021,0.0,0.113617,6.806252,68
-855.653137,192.330658,228.406631,-542.559509,-256.183899,0.0,-1659.588623,1974.523193,0.0,0.092575,6.898827,69
-912.32959,186.753693,228.406631,-592.958435,91.662086,0.0,-519.984863,3588.859375,0.0,0.096924,6.99575,70
-957.27063,215.775909,228.406631,-392.715668,453.623291,0.0,2152.035156,3890.044189,0.0,0.093048,7.088799,71
-988.56488,278.046844,228.406631,-208.828125,562.486328,0.0,1576.97644,933.583862,0.0,0.116608,7.205406,72
